Folder: PyroPython/examples/Birch_TGA_Example

File: birch_tga_5_exp.csv
#FILE:                        13WaT18 5 K min N2 16.2.2007.dsu
#FORMAT:                      NETZSCH4
#IDENTITY:                    13 WaT18 5 K min N2
#DECIMAL:                     POINT
#SEPARATOR:                   SEMICOLON
#MTYPE:                       TG
#INSTRUMENT:                  NETZSCH STA 449C
#PROJECT:                     vtt
#DATE/TIME:                   16.2.2007 7:57:49
#CORR. FILE:                  correction 5K min N2 800 C.bsu
#LABORATORY:                  EO
#OPERATOR:                    TL
#REMARK:
#SAMPLE:                      13 WaT18
#SAMPLE MASS /mg:             11.322
#MATERIAL:                    Empty crucibles
#REFERENCE:                   al2o3
#REFERENCE MASS /mg:          40.312
#TYPE OF CRUCIBLE:            DSC/TG pan Al2O3
#SAMPLE CRUCIBLE MASS /mg:    0.000
#REFERENCE CRUCIBLE MASS /mg: 0.000
#PROTECTIVE GAS:              N2
#PURGE GAS 1:                 air
#FLOW RATE 1 /(ml/min):       40
#PURGE GAS 2:
#FLOW RATE 2:
#DSC RANGE /æm:               5000
#TG RANGE /æm:                5000
#CORR. CODE:                  020
#EXO:                         +1
#RANGE:                       20.0/5.00(K/min)/800.0
#SEGMENT:                     S1/2
Temp (c),Mass (%)
 23.04100,100
 26.04100, 99.85116
 29.04100, 99.77884
 32.04100, 99.70219
 35.04100, 99.62779
 38.04100, 99.54351
 41.04100, 99.45785
 44.04100, 99.34579
 47.04100, 99.22037
 50.04100, 99.08698
 53.04100, 98.93634
 56.04100, 98.77219
 59.04100, 98.59056
 62.04100, 98.40895
 65.04100, 98.22033
 68.04100, 98.02518
 71.04100, 97.83304
 74.04100, 97.64304
 77.04100, 97.47448
 80.04100, 97.31773
 83.04100, 97.18256
 86.04100, 97.06324
 89.04100, 96.95641
 92.04100, 96.87004
 95.04100, 96.79750
 98.04100, 96.73766
101.041, 96.68790
104.041, 96.64176
107.041, 96.61089
110.041, 96.57731
113.041, 96.55180
116.041, 96.52987
119.041, 96.51430
122.041, 96.50120
125.041, 96.48713
128.041, 96.47411
131.041, 96.46003
134.041, 96.44583
137.041, 96.42902
140.041, 96.42645
143.041, 96.42104
146.041, 96.40516
149.041, 96.39461
152.041, 96.37792
155.041, 96.36380
158.041, 96.34974
161.041, 96.33289
164.041, 96.31733
167.041, 96.30295
170.041, 96.28690
173.041, 96.26654
176.041, 96.24707
179.041, 96.21231
182.041, 96.17894
185.041, 96.14531
188.041, 96.10555
191.041, 96.05887
194.041, 96.01080
197.041, 95.96349
200.041, 95.90586
203.041, 95.84947
206.041, 95.78737
209.041, 95.72650
212.041, 95.66592
215.041, 95.58369
218.041, 95.49566
221.041, 95.40618
224.041, 95.29638
227.041, 95.18017
230.041, 95.03566
233.041, 94.87809
236.041, 94.69077
239.041, 94.49055
242.041, 94.24766
245.041, 93.97629
248.041, 93.66159
251.041, 93.29907
254.041, 92.86155
257.041, 92.33937
260.041, 91.71415
263.041, 90.99068
266.041, 90.16744
269.041, 89.21444
272.041, 88.14722
275.041, 86.98597
278.041, 85.72534
281.041, 84.40413
284.041, 83.04033
287.041, 81.64535
290.041, 80.23643
293.041, 78.81420
296.041, 77.39496
299.041, 75.97404
302.041, 74.56838
305.041, 73.14166
308.041, 71.70741
311.041, 70.25332
314.041, 68.80248
317.041, 67.33258
320.041, 65.85203
323.041, 64.36852
326.041, 62.87302
329.041, 61.34984
332.041, 59.79148
335.041, 58.16657
338.041, 56.43452
341.041, 54.52993
344.041, 52.20205
347.041, 49.62573
350.041, 46.86342
353.041, 43.34373
356.041, 39.81281
359.041, 35.76433
362.041, 32.20057
365.041, 29.00369
368.041, 26.88622
371.041, 25.47754
374.041, 24.67237
377.041, 24.21157
380.041, 23.91479
383.041, 23.66286
386.041, 23.43098
389.041, 23.21642
392.041, 23.00084
395.041, 22.79071
398.041, 22.58187
401.041, 22.37981
404.041, 22.16513
407.041, 21.96449
410.041, 21.75411
413.041, 21.55439
416.041, 21.35638
419.041, 21.16135
422.041, 20.98073
425.041, 20.79828
428.041, 20.62870
431.041, 20.46723
434.041, 20.30642
437.041, 20.14849
440.041, 20.00372
443.041, 19.86711
446.041, 19.73488
449.041, 19.60930
452.041, 19.48392
455.041, 19.36424
458.041, 19.25491
461.041, 19.14764
464.041, 19.04357
467.041, 18.94618
470.041, 18.84230
473.041, 18.75368
476.041, 18.66371
479.041, 18.57022
482.041, 18.47792
485.041, 18.40244
488.041, 18.31829
491.041, 18.23785
494.041, 18.14768
497.041, 18.07043
500.041, 18.00060
503.041, 17.92006
506.041, 17.84868
509.041, 17.77353
512.041, 17.70747
515.041, 17.63256
518.041, 17.56230
521.041, 17.49718
524.041, 17.42857
527.041, 17.35975
530.041, 17.30433
533.041, 17.22974
536.041, 17.17712
539.041, 17.10621
542.041, 17.04455
545.041, 16.99002
548.041, 16.93685
551.041, 16.87567
554.041, 16.81454
557.041, 16.76178
560.041, 16.70436
563.041, 16.64927
566.041, 16.60225
569.041, 16.55609
572.041, 16.50086
575.041, 16.44548
578.041, 16.40337
581.041, 16.35745
584.041, 16.31072
587.041, 16.26920
590.041, 16.21271
593.041, 16.16780
596.041, 16.13074
599.041, 16.08759
602.041, 16.04170
605.041, 16.00193
608.041, 15.96862
611.041, 15.93154
614.041, 15.89653
617.041, 15.85831
620.041, 15.82820
623.041, 15.80163
626.041, 15.76112
629.041, 15.73935
632.041, 15.69529
635.041, 15.66731
638.041, 15.63311
641.041, 15.60609
644.041, 15.58211
647.041, 15.55020
650.041, 15.53057
653.041, 15.50091
656.041, 15.47625
659.041, 15.45576
662.041, 15.43023
665.041, 15.41332
668.041, 15.38850
671.041, 15.36286
674.041, 15.34107
677.041, 15.31905
680.041, 15.29634
683.041, 15.27265
686.041, 15.25343
689.041, 15.23070
692.041, 15.21487
695.041, 15.18984
698.041, 15.16904
701.041, 15.14812
704.041, 15.12308
707.041, 15.10344
710.041, 15.08657
713.041, 15.06356
716.041, 15.04850
719.041, 15.02890
722.041, 15.01225
725.041, 14.99365
728.041, 14.97445
731.041, 14.95877
734.041, 14.93513
737.041, 14.91831
740.041, 14.89902
743.041, 14.88455
746.041, 14.86089
749.041, 14.84284
752.041, 14.82600
755.041, 14.81090
758.041, 14.79416
761.041, 14.77574
764.041, 14.76235
767.041, 14.74361
770.041, 14.72353
773.041, 14.70078
776.041, 14.68953
779.041, 14.67236
782.041, 14.65419
785.041, 14.64176
788.041, 14.62233
791.041, 14.60898
794.041, 14.59382
797.041, 14.57870