Folder: PyroPython/examples/Birch_TGA_Gronli

File: birch_tga_10_exp.csv
#FILE:                        13WaT18 10 K min N2 15.2.2007.dsu
#FORMAT:                      NETZSCH4
#IDENTITY:                    13 WaT18 10 K min N2
#DECIMAL:                     POINT
#SEPARATOR:                   SEMICOLON
#MTYPE:                       TG
#INSTRUMENT:                  NETZSCH STA 449C
#PROJECT:                     vtt
#DATE/TIME:                   15.2.2007 8:12:40
#CORR. FILE:                  correction 10K min N2 800 C.bsu
#LABORATORY:                  EO
#OPERATOR:                    TL
#REMARK:
#SAMPLE:                      13 WaT18
#SAMPLE MASS /mg:             12.798
#MATERIAL:                    Empty crucibles
#REFERENCE:                   al2o3
#REFERENCE MASS /mg:          40.312
#TYPE OF CRUCIBLE:            DSC/TG pan Al2O3
#SAMPLE CRUCIBLE MASS /mg:    0.000
#REFERENCE CRUCIBLE MASS /mg: 0.000
#PROTECTIVE GAS:              N2
#PURGE GAS 1:                 air
#FLOW RATE 1 /(ml/min):       40
#PURGE GAS 2:
#FLOW RATE 2:
#DSC RANGE /æm:               5000
#TG RANGE /æm:                5000
#CORR. CODE:                  020
#EXO:                         +1
#RANGE:                       20.0/10.00(K/min)/800.0
#SEGMENT:                     S1/2
Temp (C),Mass (%)
 23.01411,100
 26.01411, 99.93747
 29.01411, 99.93246
 32.01411, 99.90970
 35.01411, 99.89244
 38.01411, 99.86266
 41.01411, 99.82218
 44.01411, 99.78191
 47.01411, 99.73271
 50.01411, 99.68596
 53.01411, 99.61186
 56.01411, 99.54435
 59.01411, 99.45007
 62.01411, 99.35205
 65.01411, 99.25233
 68.01411, 99.12821
 71.01411, 99.00471
 74.01411, 98.86552
 77.01411, 98.72898
 80.01411, 98.58100
 83.01411, 98.43899
 86.01411, 98.30083
 89.01411, 98.16014
 92.01411, 98.03808
 95.01411, 97.92016
 98.01411, 97.82136
101.014, 97.73288
104.014, 97.66062
107.014, 97.60289
110.014, 97.55269
113.014, 97.51330
116.014, 97.48542
119.014, 97.46331
122.014, 97.43949
125.014, 97.42226
128.014, 97.40959
131.014, 97.39938
134.014, 97.38750
137.014, 97.38084
140.014, 97.36841
143.014, 97.36541
146.014, 97.35899
149.014, 97.35312
152.014, 97.34641
155.014, 97.34175
158.014, 97.33877
161.014, 97.33550
164.014, 97.33133
167.014, 97.32062
170.014, 97.31295
173.014, 97.30667
176.014, 97.30189
179.014, 97.29192
182.014, 97.28174
185.014, 97.26572
188.014, 97.24946
191.014, 97.23407
194.014, 97.21324
197.014, 97.19539
200.014, 97.17115
203.014, 97.14326
206.014, 97.11318
209.014, 97.08008
212.014, 97.04191
215.014, 97.00519
218.014, 96.96282
221.014, 96.91553
224.014, 96.86307
227.014, 96.79542
230.014, 96.72683
233.014, 96.64420
236.014, 96.54919
239.014, 96.43841
242.014, 96.29486
245.014, 96.14007
248.014, 95.95734
251.014, 95.75585
254.014, 95.51687
257.014, 95.22801
260.014, 94.90536
263.014, 94.52792
266.014, 94.08241
269.014, 93.55362
272.014, 92.92371
275.014, 92.20069
278.014, 91.35416
281.014, 90.31012
284.014, 89.33415
287.014, 87.96880
290.014, 86.79023
293.014, 85.47705
296.014, 83.93925
299.014, 82.64537
302.014, 81.22023
305.014, 79.65164
308.014, 78.26332
311.014, 76.93110
314.014, 75.40106
317.014, 73.87087
320.014, 72.39775
323.014, 70.96834
326.014, 69.53209
329.014, 67.94997
332.014, 66.48177
335.014, 65.04681
338.014, 63.61283
341.014, 61.94299
344.014, 60.51407
347.014, 58.70262
350.014, 56.89060
353.014, 54.94829
356.014, 52.69426
359.014, 50.14379
362.014, 47.20218
365.014, 43.91334
368.014, 40.37104
371.014, 36.70433
374.014, 33.22823
377.014, 30.19677
380.014, 27.85642
383.014, 26.33732
386.014, 25.40229
389.014, 24.86496
392.014, 24.51868
395.014, 24.26247
398.014, 24.03010
401.014, 23.82094
404.014, 23.61512
407.014, 23.41364
410.014, 23.21765
413.014, 23.01924
416.014, 22.82068
419.014, 22.62576
422.014, 22.43484
425.014, 22.24598
428.014, 22.06454
431.014, 21.88439
434.014, 21.71690
437.014, 21.54425
440.014, 21.38261
443.014, 21.23156
446.014, 21.08284
449.014, 20.94631
452.014, 20.81182
455.014, 20.69351
458.014, 20.56960
461.014, 20.46000
464.014, 20.34843
467.014, 20.24376
470.014, 20.14820
473.014, 20.05563
476.014, 19.96398
479.014, 19.87054
482.014, 19.79082
485.014, 19.70434
488.014, 19.62516
491.014, 19.54670
494.014, 19.46882
497.014, 19.39536
500.014, 19.32037
503.014, 19.25157
506.014, 19.17889
509.014, 19.11055
512.014, 19.04735
515.014, 18.97874
518.014, 18.90927
521.014, 18.83990
524.014, 18.77581
527.014, 18.72067
530.014, 18.65776
533.014, 18.60379
536.014, 18.54108
539.014, 18.48547
542.014, 18.42172
545.014, 18.37117
548.014, 18.31010
551.014, 18.26247
554.014, 18.20766
557.014, 18.15191
560.014, 18.10717
563.014, 18.04606
566.014, 17.99687
569.014, 17.94500
572.014, 17.89614
575.014, 17.85949
578.014, 17.80787
581.014, 17.75854
584.014, 17.71682
587.014, 17.67277
590.014, 17.62355
593.014, 17.58995
596.014, 17.53994
599.014, 17.50013
602.014, 17.45961
605.014, 17.41989
608.014, 17.38240
611.014, 17.34179
614.014, 17.30510
617.014, 17.27545
620.014, 17.23558
623.014, 17.21367
626.014, 17.17143
629.014, 17.14896
632.014, 17.11988
635.014, 17.08434
638.014, 17.06134
641.014, 17.03104
644.014, 17.00768
647.014, 16.98658
650.014, 16.95840
653.014, 16.92541
656.014, 16.91207
659.014, 16.88941
662.014, 16.85732
665.014, 16.84869
668.014, 16.82524
671.014, 16.80559
674.014, 16.77818
677.014, 16.76668
680.014, 16.74168
683.014, 16.72708
686.014, 16.71639
689.014, 16.70110
692.014, 16.67273
695.014, 16.65507
698.014, 16.63434
701.014, 16.62564
704.014, 16.59714
707.014, 16.58412
710.014, 16.57580
713.014, 16.56239
716.014, 16.54513
719.014, 16.51275
722.014, 16.50461
725.014, 16.48578
728.014, 16.46681
731.014, 16.45196
734.014, 16.43881
737.014, 16.43169
740.014, 16.40227
743.014, 16.38422
746.014, 16.36442
749.014, 16.34943
752.014, 16.33454
755.014, 16.31899
758.014, 16.30082
761.014, 16.28847
764.014, 16.27069
767.014, 16.25631
770.014, 16.24474
773.014, 16.22841
776.014, 16.20949
779.014, 16.19229
782.014, 16.17779
785.014, 16.17363
788.014, 16.15354
791.014, 16.14475
794.014, 16.12835
797.014, 16.11616